date	time	group	subject	build	blocknum	trialnum	blockcode	trialcode	pretrialpause	posttrialpause	windowcenter	trialduration	trialtimeout	blocktimeout	response	correct	latency	inwindow	stimulusnumber1	stimulusitem1	stimulusvpos1	stimulushpos1	stimulusonset1	stimulusnumber2	stimulusitem2	stimulusvpos2	stimulushpos2	stimulusonset2	stimulusnumber3	stimulusitem3	stimulusvpos3	stimulushpos3	stimulusonset3	stimulusnumber4	stimulusitem4	stimulusvpos4	stimulushpos4	stimulusonset4	stimulusnumber5	stimulusitem5	stimulusvpos5	stimulushpos5	stimulusonset5
012617	15:02:05	1	1	4.0.9.0	2	1	fourblk	four14	100	0	0	0	0	0	lbuttondown	0	46	0	1	+	50pct	50pct	0	1	N240.bmp	5	22	817	1	N240.bmp	52	22	817	1	N224.bmp	5	52	817	1	N240.bmp	52	52	817
012617	15:02:05	1	1	4.0.9.0	2	2	fourblk	four06	100	0	0	0	0	0	lbuttondown	1	38	0	1	+	50pct	50pct	0	1	N240.bmp	5	22	816	1	N240.bmp	52	22	816	1	N96.bmp	5	52	816	1	N240.bmp	52	52	816
012617	15:02:05	1	1	4.0.9.0	2	3	fourblk	four07	100	0	0	0	0	0	lbuttondown	0	44	0	1	+	50pct	50pct	0	1	N240.bmp	5	22	816	1	N240.bmp	52	22	816	1	N240.bmp	5	52	816	1	N112.bmp	52	52	816
012617	15:02:05	1	1	4.0.9.0	2	4	fourblk	four09	100	0	0	0	0	0	lbuttondown	1	33	0	1	+	50pct	50pct	0	1	N240.bmp	5	22	816	1	N144.bmp	52	22	816	1	N240.bmp	5	52	816	1	N240.bmp	52	52	816
012617	15:02:05	1	1	4.0.9.0	2	5	fourblk	four13	100	0	0	0	0	0	lbuttondown	1	19	0	1	+	50pct	50pct	0	1	N240.bmp	5	22	816	1	N208.bmp	52	22	816	1	N240.bmp	5	52	816	1	N240.bmp	52	52	816
012617	15:02:05	1	1	4.0.9.0	2	6	fourblk	four00	100	0	0	0	0	0	lbuttondown	1	35	0	1	+	50pct	50pct	0	1	N0.bmp	5	22	816	1	N240.bmp	52	22	816	1	N240.bmp	5	52	816	1	N240.bmp	52	52	816
012617	15:02:05	1	1	4.0.9.0	2	7	fourblk	four02	100	0	0	0	0	0	lbuttondown	1	39	0	1	+	50pct	50pct	0	1	N240.bmp	5	22	816	1	N240.bmp	52	22	816	1	N32.bmp	5	52	816	1	N240.bmp	52	52	816
012617	15:02:05	1	1	4.0.9.0	2	8	fourblk	four08	100	0	0	0	0	0	lbuttondown	0	48	0	1	+	50pct	50pct	0	1	N128.bmp	5	22	816	1	N240.bmp	52	22	816	1	N240.bmp	5	52	816	1	N240.bmp	52	52	816
012617	15:02:05	1	1	4.0.9.0	2	9	fourblk	four04	100	0	0	0	0	0	lbuttondown	1	45	0	1	+	50pct	50pct	0	1	N64.bmp	5	22	816	1	N240.bmp	52	22	816	1	N240.bmp	5	52	816	1	N240.bmp	52	52	816
012617	15:02:05	1	1	4.0.9.0	2	10	fourblk	four05	100	0	0	0	0	0	lbuttondown	0	50	0	1	+	50pct	50pct	0	1	N240.bmp	5	22	816	1	N80.bmp	52	22	816	1	N240.bmp	5	52	816	1	N240.bmp	52	52	816
012617	15:02:05	1	1	4.0.9.0	2	11	fourblk	four11	100	0	0	0	0	0	lbuttondown	1	55	0	1	+	50pct	50pct	0	1	N240.bmp	5	22	816	1	N240.bmp	52	22	816	1	N240.bmp	5	52	816	1	N176.bmp	52	52	816
012617	15:02:05	1	1	4.0.9.0	2	12	fourblk	four01	100	0	0	0	0	0	lbuttondown	1	35	0	1	+	50pct	50pct	0	1	N240.bmp	5	22	816	1	N16.bmp	52	22	816	1	N240.bmp	5	52	816	1	N240.bmp	52	52	816
012617	15:02:05	1	1	4.0.9.0	2	13	fourblk	four12	100	0	0	0	0	0	lbuttondown	0	40	0	1	+	50pct	50pct	0	1	N192.bmp	5	22	816	1	N240.bmp	52	22	816	1	N240.bmp	5	52	816	1	N240.bmp	52	52	816
012617	15:02:05	1	1	4.0.9.0	2	14	fourblk	four10	100	0	0	0	0	0	lbuttondown	1	29	0	1	+	50pct	50pct	0	1	N240.bmp	5	22	816	1	N240.bmp	52	22	816	1	N160.bmp	5	52	816	1	N240.bmp	52	52	816
012617	15:02:05	1	1	4.0.9.0	2	15	fourblk	four03	100	0	0	0	0	0	lbuttondown	0	21	0	1	+	50pct	50pct	0	1	N240.bmp	5	22	816	1	N240.bmp	52	22	816	1	N240.bmp	5	52	816	1	N48.bmp	52	52	816
012617	15:02:05	1	1	4.0.9.0	3	1	fourblk	four01	100	0	0	0	0	0	lbuttondown	0	37	0	1	+	50pct	50pct	0	1	N240.bmp	5	22	816	1	N16.bmp	52	22	816	1	N240.bmp	5	52	816	1	N240.bmp	52	52	816
012617	15:02:05	1	1	4.0.9.0	3	2	fourblk	four03	100	0	0	0	0	0	lbuttondown	0	44	0	1	+	50pct	50pct	0	1	N240.bmp	5	22	816	1	N240.bmp	52	22	816	1	N240.bmp	5	52	816	1	N48.bmp	52	52	816
012617	15:02:05	1	1	4.0.9.0	3	3	fourblk	four14	100	0	0	0	0	0	lbuttondown	0	56	0	1	+	50pct	50pct	0	1	N240.bmp	5	22	816	1	N240.bmp	52	22	816	1	N224.bmp	5	52	816	1	N240.bmp	52	52	816
012617	15:02:05	1	1	4.0.9.0	3	4	fourblk	four07	100	0	0	0	0	0	lbuttondown	0	40	0	1	+	50pct	50pct	0	1	N240.bmp	5	22	816	1	N240.bmp	52	22	816	1	N240.bmp	5	52	816	1	N112.bmp	52	52	816
012617	15:02:05	1	1	4.0.9.0	3	5	fourblk	four04	100	0	0	0	0	0	lbuttondown	1	25	0	1	+	50pct	50pct	0	1	N64.bmp	5	22	816	1	N240.bmp	52	22	816	1	N240.bmp	5	52	816	1	N240.bmp	52	52	816
012617	15:02:05	1	1	4.0.9.0	3	6	fourblk	four12	100	0	0	0	0	0	lbuttondown	0	30	0	1	+	50pct	50pct	0	1	N192.bmp	5	22	816	1	N240.bmp	52	22	816	1	N240.bmp	5	52	816	1	N240.bmp	52	52	816
012617	15:02:05	1	1	4.0.9.0	3	7	fourblk	four05	100	0	0	0	0	0	lbuttondown	0	52	0	1	+	50pct	50pct	0	1	N240.bmp	5	22	816	1	N80.bmp	52	22	816	1	N240.bmp	5	52	816	1	N240.bmp	52	52	816
012617	15:02:05	1	1	4.0.9.0	3	8	fourblk	four02	100	0	0	0	0	0	lbuttondown	0	30	0	1	+	50pct	50pct	0	1	N240.bmp	5	22	816	1	N240.bmp	52	22	816	1	N32.bmp	5	52	816	1	N240.bmp	52	52	816
012617	15:02:05	1	1	4.0.9.0	3	9	fourblk	four08	100	0	0	0	0	0	lbuttondown	1	60	0	1	+	50pct	50pct	0	1	N128.bmp	5	22	816	1	N240.bmp	52	22	816	1	N240.bmp	5	52	816	1	N240.bmp	52	52	816
012617	15:02:05	1	1	4.0.9.0	3	10	fourblk	four09	100	0	0	0	0	0	lbuttondown	0	31	0	1	+	50pct	50pct	0	1	N240.bmp	5	22	816	1	N144.bmp	52	22	816	1	N240.bmp	5	52	816	1	N240.bmp	52	52	816
012617	15:02:05	1	1	4.0.9.0	3	11	fourblk	four06	100	0	0	0	0	0	lbuttondown	0	32	0	1	+	50pct	50pct	0	1	N240.bmp	5	22	816	1	N240.bmp	52	22	816	1	N96.bmp	5	52	816	1	N240.bmp	52	52	816
012617	15:02:05	1	1	4.0.9.0	3	12	fourblk	four11	100	0	0	0	0	0	lbuttondown	0	45	0	1	+	50pct	50pct	0	1	N240.bmp	5	22	816	1	N240.bmp	52	22	816	1	N240.bmp	5	52	816	1	N176.bmp	52	52	816
012617	15:02:05	1	1	4.0.9.0	3	13	fourblk	four10	100	0	0	0	0	0	lbuttondown	0	43	0	1	+	50pct	50pct	0	1	N240.bmp	5	22	816	1	N240.bmp	52	22	816	1	N160.bmp	5	52	816	1	N240.bmp	52	52	816
012617	15:02:05	1	1	4.0.9.0	3	14	fourblk	four13	100	0	0	0	0	0	lbuttondown	1	41	0	1	+	50pct	50pct	0	1	N240.bmp	5	22	816	1	N208.bmp	52	22	816	1	N240.bmp	5	52	816	1	N240.bmp	52	52	816
012617	15:02:05	1	1	4.0.9.0	3	15	fourblk	four00	100	0	0	0	0	0	lbuttondown	0	24	0	1	+	50pct	50pct	0	1	N0.bmp	5	22	816	1	N240.bmp	52	22	816	1	N240.bmp	5	52	816	1	N240.bmp	52	52	816
012617	15:07:10	1	1	4.0.9.0	2	1	fourblk	four04	100	0	0	0	0	0	lbuttondown	0	33	0	1	+	50pct	50pct	0	1	N64.bmp	5	22	816	1	N240.bmp	52	22	816	1	N240.bmp	5	52	816	1	N240.bmp	52	52	816
012617	15:07:10	1	1	4.0.9.0	2	2	fourblk	four02	100	0	0	0	0	0	lbuttondown	1	46	0	1	+	50pct	50pct	0	1	N240.bmp	5	22	816	1	N240.bmp	52	22	816	1	N32.bmp	5	52	816	1	N240.bmp	52	52	816
012617	15:07:10	1	1	4.0.9.0	2	3	fourblk	four01	100	0	0	0	0	0	lbuttondown	1	36	0	1	+	50pct	50pct	0	1	N240.bmp	5	22	816	1	N16.bmp	52	22	816	1	N240.bmp	5	52	816	1	N240.bmp	52	52	816
012617	15:07:10	1	1	4.0.9.0	2	4	fourblk	four05	100	0	0	0	0	0	lbuttondown	1	38	0	1	+	50pct	50pct	0	1	N240.bmp	5	22	816	1	N80.bmp	52	22	816	1	N240.bmp	5	52	816	1	N240.bmp	52	52	816
012617	15:07:10	1	1	4.0.9.0	2	5	fourblk	four00	100	0	0	0	0	0	lbuttondown	0	46	0	1	+	50pct	50pct	0	1	N0.bmp	5	22	816	1	N240.bmp	52	22	816	1	N240.bmp	5	52	816	1	N240.bmp	52	52	816
012617	15:07:10	1	1	4.0.9.0	2	6	fourblk	four12	100	0	0	0	0	0	lbuttondown	0	46	0	1	+	50pct	50pct	0	1	N192.bmp	5	22	816	1	N240.bmp	52	22	816	1	N240.bmp	5	52	816	1	N240.bmp	52	52	816
012617	15:07:10	1	1	4.0.9.0	2	7	fourblk	four13	100	0	0	0	0	0	lbuttondown	0	37	0	1	+	50pct	50pct	0	1	N240.bmp	5	22	816	1	N208.bmp	52	22	816	1	N240.bmp	5	52	816	1	N240.bmp	52	52	816
012617	15:07:10	1	1	4.0.9.0	2	8	fourblk	four07	100	0	0	0	0	0	lbuttondown	0	40	0	1	+	50pct	50pct	0	1	N240.bmp	5	22	816	1	N240.bmp	52	22	816	1	N240.bmp	5	52	816	1	N112.bmp	52	52	816
012617	15:07:10	1	1	4.0.9.0	2	9	fourblk	four06	100	0	0	0	0	0	lbuttondown	0	34	0	1	+	50pct	50pct	0	1	N240.bmp	5	22	816	1	N240.bmp	52	22	816	1	N96.bmp	5	52	816	1	N240.bmp	52	52	816
012617	15:07:10	1	1	4.0.9.0	2	10	fourblk	four11	100	0	0	0	0	0	lbuttondown	0	39	0	1	+	50pct	50pct	0	1	N240.bmp	5	22	816	1	N240.bmp	52	22	816	1	N240.bmp	5	52	816	1	N176.bmp	52	52	816
012617	15:07:10	1	1	4.0.9.0	2	11	fourblk	four14	100	0	0	0	0	0	lbuttondown	1	44	0	1	+	50pct	50pct	0	1	N240.bmp	5	22	816	1	N240.bmp	52	22	816	1	N224.bmp	5	52	816	1	N240.bmp	52	52	816
012617	15:07:10	1	1	4.0.9.0	2	12	fourblk	four10	100	0	0	0	0	0	lbuttondown	1	40	0	1	+	50pct	50pct	0	1	N240.bmp	5	22	816	1	N240.bmp	52	22	816	1	N160.bmp	5	52	816	1	N240.bmp	52	52	816
012617	15:07:10	1	1	4.0.9.0	2	13	fourblk	four03	100	0	0	0	0	0	lbuttondown	0	40	0	1	+	50pct	50pct	0	1	N240.bmp	5	22	816	1	N240.bmp	52	22	816	1	N240.bmp	5	52	816	1	N48.bmp	52	52	816
012617	15:07:10	1	1	4.0.9.0	2	14	fourblk	four08	100	0	0	0	0	0	lbuttondown	1	58	0	1	+	50pct	50pct	0	1	N128.bmp	5	22	816	1	N240.bmp	52	22	816	1	N240.bmp	5	52	816	1	N240.bmp	52	52	816
012617	15:07:10	1	1	4.0.9.0	2	15	fourblk	four09	100	0	0	0	0	0	lbuttondown	1	48	0	1	+	50pct	50pct	0	1	N240.bmp	5	22	816	1	N144.bmp	52	22	816	1	N240.bmp	5	52	816	1	N240.bmp	52	52	816
012617	15:07:10	1	1	4.0.9.0	3	1	fourblk	four03	100	0	0	0	0	0	lbuttondown	0	55	0	1	+	50pct	50pct	0	1	N240.bmp	5	22	816	1	N240.bmp	52	22	816	1	N240.bmp	5	52	816	1	N48.bmp	52	52	816
012617	15:07:10	1	1	4.0.9.0	3	2	fourblk	four04	100	0	0	0	0	0	lbuttondown	1	41	0	1	+	50pct	50pct	0	1	N64.bmp	5	22	816	1	N240.bmp	52	22	816	1	N240.bmp	5	52	816	1	N240.bmp	52	52	816
012617	15:07:10	1	1	4.0.9.0	3	3	fourblk	four01	100	0	0	0	0	0	lbuttondown	1	41	0	1	+	50pct	50pct	0	1	N240.bmp	5	22	816	1	N16.bmp	52	22	816	1	N240.bmp	5	52	816	1	N240.bmp	52	52	816
012617	15:07:10	1	1	4.0.9.0	3	4	fourblk	four06	100	0	0	0	0	0	lbuttondown	1	41	0	1	+	50pct	50pct	0	1	N240.bmp	5	22	816	1	N240.bmp	52	22	816	1	N96.bmp	5	52	816	1	N240.bmp	52	52	816
012617	15:07:10	1	1	4.0.9.0	3	5	fourblk	four14	100	0	0	0	0	0	lbuttondown	1	41	0	1	+	50pct	50pct	0	1	N240.bmp	5	22	816	1	N240.bmp	52	22	816	1	N224.bmp	5	52	816	1	N240.bmp	52	52	816
012617	15:07:10	1	1	4.0.9.0	3	6	fourblk	four02	100	0	0	0	0	0	lbuttondown	1	42	0	1	+	50pct	50pct	0	1	N240.bmp	5	22	816	1	N240.bmp	52	22	816	1	N32.bmp	5	52	816	1	N240.bmp	52	52	816
012617	15:07:10	1	1	4.0.9.0	3	7	fourblk	four00	100	0	0	0	0	0	lbuttondown	0	42	0	1	+	50pct	50pct	0	1	N0.bmp	5	22	816	1	N240.bmp	52	22	816	1	N240.bmp	5	52	816	1	N240.bmp	52	52	816
012617	15:07:10	1	1	4.0.9.0	3	8	fourblk	four09	100	0	0	0	0	0	lbuttondown	0	26	0	1	+	50pct	50pct	0	1	N240.bmp	5	22	816	1	N144.bmp	52	22	816	1	N240.bmp	5	52	816	1	N240.bmp	52	52	816
012617	15:07:10	1	1	4.0.9.0	3	9	fourblk	four07	100	0	0	0	0	0	lbuttondown	1	46	0	1	+	50pct	50pct	0	1	N240.bmp	5	22	816	1	N240.bmp	52	22	816	1	N240.bmp	5	52	816	1	N112.bmp	52	52	816
012617	15:07:10	1	1	4.0.9.0	3	10	fourblk	four10	100	0	0	0	0	0	lbuttondown	1	32	0	1	+	50pct	50pct	0	1	N240.bmp	5	22	816	1	N240.bmp	52	22	816	1	N160.bmp	5	52	816	1	N240.bmp	52	52	816
012617	15:07:10	1	1	4.0.9.0	3	11	fourblk	four08	100	0	0	0	0	0	lbuttondown	1	19	0	1	+	50pct	50pct	0	1	N128.bmp	5	22	816	1	N240.bmp	52	22	816	1	N240.bmp	5	52	816	1	N240.bmp	52	52	816
012617	15:07:10	1	1	4.0.9.0	3	12	fourblk	four13	100	0	0	0	0	0	lbuttondown	0	37	0	1	+	50pct	50pct	0	1	N240.bmp	5	22	816	1	N208.bmp	52	22	816	1	N240.bmp	5	52	816	1	N240.bmp	52	52	816
012617	15:07:10	1	1	4.0.9.0	3	13	fourblk	four11	100	0	0	0	0	0	lbuttondown	1	31	0	1	+	50pct	50pct	0	1	N240.bmp	5	22	816	1	N240.bmp	52	22	816	1	N240.bmp	5	52	816	1	N176.bmp	52	52	816
012617	15:07:10	1	1	4.0.9.0	3	14	fourblk	four05	100	0	0	0	0	0	lbuttondown	1	33	0	1	+	50pct	50pct	0	1	N240.bmp	5	22	816	1	N80.bmp	52	22	816	1	N240.bmp	5	52	816	1	N240.bmp	52	52	816
012617	15:07:10	1	1	4.0.9.0	3	15	fourblk	four12	100	0	0	0	0	0	lbuttondown	1	44	0	1	+	50pct	50pct	0	1	N192.bmp	5	22	816	1	N240.bmp	52	22	816	1	N240.bmp	5	52	816	1	N240.bmp	52	52	816
